File: Main text Fig 1e TGA/^&164-Gd.txt
Title                                                           02.11.2020 09:39
________________________________________________________________________________

Title
Evaluation Categories:

Curve Name:
  ^&164-Gd
  Sample Weight
Curve Values:
          Index              t             Ts             Tr          Value
                           [s]           [°C]           [°C]           [mg]
              0              0         23.265         25.000        4.33505
             47             47         23.989         25.783        4.31971
             94             94         24.795         26.567        4.30425
            141            141         25.657         27.350        4.29103
            188            188         26.474         28.133        4.27886
            235            235         27.276         28.917        4.26708
            282            282         28.062         29.700        4.25572
            329            329         28.853         30.483        4.24494
            376            376         29.646         31.267        4.23394
            423            423         30.452         32.050        4.22294
            470            470         31.240         32.833        4.21205
            517            517         32.015         33.617        4.20173
            564            564         32.805         34.400        4.19067
            611            611         33.596         35.183        4.18011
            658            658         34.386         35.967        4.16867
            705            705         35.181         36.750        4.15979
            752            752         35.961         37.533        4.14979
            799            799         36.760         38.317        4.13993
            846            846         37.531         39.100        4.13012
            893            893         38.336         39.883        4.12103
            940            940         39.127         40.667        4.11208
            987            987         39.914         41.450         4.1033
           1034           1034         40.717         42.233        4.09426
           1081           1081         41.496         43.017        4.08578
           1128           1128         42.289         43.800        4.07734
           1175           1175         43.082         44.583        4.06954
           1222           1222         43.868         45.367        4.06146
           1269           1269         44.658         46.150        4.05383
           1316           1316         45.442         46.933         4.0465
           1363           1363         46.246         47.717        4.03991
           1410           1410         47.033         48.500        4.03258
           1457           1457         47.821         49.283        4.02602
           1504           1504         48.610         50.067        4.01927
           1551           1551         49.400         50.850        4.01249
           1598           1598         50.193         51.633        4.00641
           1645           1645         50.984         52.417        4.00084
           1692           1692         51.771         53.200        3.99417
           1739           1739         52.558         53.983        3.98864
           1786           1786         53.343         54.767        3.98331
           1833           1833         54.130         55.550        3.97745
           1880           1880         54.936         56.333        3.97228
           1927           1927         55.721         57.117        3.96707
           1974           1974         56.512         57.900        3.96158
           2021           2021         57.300         58.683        3.95708
           2068           2068         58.091         59.467        3.95206
           2115           2115         58.888         60.250        3.94724
           2162           2162         59.671         61.033        3.94235
           2209           2209         60.464         61.817        3.93832
           2256           2256         61.260         62.600        3.93369
           2303           2303         62.056         63.383        3.92967
           2350           2350         62.853         64.167        3.92516
           2397           2397         63.632         64.950        3.92131
           2444           2444         64.428         65.733        3.91688
           2491           2491         65.214         66.517         3.9132
           2538           2538         66.014         67.300         3.9091
           2585           2585         66.806         68.083        3.90538
           2632           2632         67.603         68.867        3.90227
           2679           2679         68.407         69.650        3.89814
           2726           2726         69.181         70.433        3.89469
           2773           2773         69.979         71.217        3.89111
           2820           2820         70.763         72.000        3.88756
           2867           2867         71.562         72.783        3.88477
           2914           2914         72.352         73.567        3.88139
           2961           2961         73.147         74.350        3.87843
           3008           3008         73.923         75.133        3.87553
           3055           3055         74.717         75.917        3.87261
           3102           3102         75.522         76.700        3.86975
           3149           3149         76.306         77.483        3.86655
           3196           3196         77.106         78.267        3.86329
           3243           3243         77.888         79.050        3.86121
           3290           3290         78.683         79.833        3.85854
           3337           3337         79.474         80.617        3.85569
           3384           3384         80.273         81.400        3.85324
           3431           3431         81.056         82.183        3.85121
           3478           3478         81.859         82.967        3.84865
           3525           3525         82.654         83.750        3.84655
           3572           3572         83.434         84.533        3.84404
           3619           3619         84.235         85.317        3.84209
           3666           3666         84.949         86.100        3.83985
           3713           3713         85.779         86.883        3.83758
           3760           3760         86.595         87.667        3.83532
           3807           3807         87.405         88.450        3.83375
           3854           3854         88.184         89.233        3.83141
           3901           3901         88.979         90.017        3.82916
           3948           3948         89.780         90.800        3.82733
           3995           3995         90.577         91.583        3.82545
           4042           4042         91.371         92.367        3.82346
           4089           4089         92.164         93.150        3.82174
           4136           4136         92.952         93.933        3.82037
           4183           4183         93.738         94.717        3.81853
           4230           4230         94.531         95.500        3.81682
           4277           4277         95.321         96.283        3.81518
           4324           4324         96.117         97.067        3.81374
           4371           4371         96.911         97.850        3.81202
           4418           4418         97.712         98.633        3.81047
           4465           4465         98.497         99.417        3.80879
           4512           4512         99.300        100.200        3.80755
           4559           4559        100.085        100.983        3.80602
           4606           4606        100.890        101.767        3.80484
           4653           4653        101.670        102.550        3.80344
           4700           4700        102.471        103.333        3.80215
           4747           4747        103.255        104.117        3.80065
           4794           4794        104.056        104.900        3.79951
           4841           4841        104.846        105.683        3.79835
           4888           4888        105.652        106.467        3.79705
           4935           4935        106.443        107.250         3.7957
           4982           4982        107.241        108.033        3.79466
           5029           5029        108.044        108.817         3.7934
           5076           5076        108.833        109.600         3.7922
           5123           5123        109.636        110.383        3.79092
           5170           5170        110.421        111.167        3.79004
           5217           5217        111.222        111.950        3.78902
           5264           5264        112.006        112.733        3.78805
           5311           5311        112.801        113.517        3.78687
           5358           5358        113.586        114.300        3.78553
           5405           5405        114.395        115.083        3.78467
           5452           5452        115.195        115.867        3.78379
           5499           5499        115.981        116.650        3.78275
           5546           5546        116.772        117.433        3.78191
           5593           5593        117.561        118.217        3.78116
           5640           5640        118.347        119.000        3.78053
           5687           5687        119.141        119.783        3.77912
           5734           5734        119.943        120.567        3.77822
           5781           5781        120.733        121.350        3.77762
           5828           5828        121.524        122.133        3.77708
           5875           5875        122.313        122.917        3.77618
           5922           5922        123.114        123.700        3.77525
           5969           5969        123.902        124.483        3.77467
           6016           6016        124.702        125.267        3.77415
           6063           6063        125.489        126.050        3.77325
           6110           6110        126.294        126.833        3.77241
           6157           6157        127.078        127.617        3.77168
           6204           6204        127.876        128.400        3.77105
           6251           6251        128.683        129.183         3.7704
           6298           6298        129.280        129.967        3.76951
           6345           6345        129.461        130.000        3.76902
           6392           6392        129.529        130.000        3.76869
           6439           6439        129.546        130.000         3.7686
           6486           6486        129.535        130.000        3.76802
           6533           6533        129.537        130.000        3.76794
           6580           6580        129.544        130.000        3.76759
           6627           6627        129.537        130.000        3.76747
           6674           6674        129.533        130.000        3.76718
           6721           6721        129.537        130.000        3.76678
           6768           6768        129.531        130.000        3.76672
           6815           6815        129.531        130.000        3.76635
           6862           6862        129.535        130.000        3.76619
           6909           6909        129.536        130.000        3.76623
           6956           6956        129.558        130.000        3.76536
           7003           7003        129.549        130.000        3.76575
           7050           7050        129.543        130.000        3.76529
           7097           7097        129.538        130.000        3.76548
           7144           7144        129.535        130.000        3.76506
           7191           7191        129.543        130.000        3.76511
           7238           7238        129.540        130.000        3.76477
           7285           7285        129.531        130.000        3.76432
           7332           7332        129.530        130.000        3.76436
           7379           7379        129.524        130.000        3.76438
           7426           7426        129.522        130.000        3.76284
           7473           7473        129.526        130.000        3.76407
           7520           7520        129.518        130.000        3.76353
           7567           7567        129.531        130.000        3.76349
           7614           7614        129.527        130.000        3.76362
           7661           7661        129.526        130.000        3.76365
           7708           7708        129.541        130.000        3.76339
           7755           7755        129.528        130.000        3.76299
           7802           7802        129.533        130.000        3.76325
           7849           7849        129.528        130.000        3.76263
           7896           7896        129.516        130.000        3.76244
           7943           7943        129.518        130.000        3.76246
           7990           7990        129.525        130.000         3.7624
           8037           8037        129.527        130.000        3.76213
           8084           8084        129.526        130.000        3.76216
           8131           8131        129.540        130.000        3.76219
           8178           8178        129.529        130.000        3.76188
           8225           8225        129.542        130.000        3.76197
           8272           8272        129.539        130.000        3.76212
           8319           8319        129.526        130.000         3.7617
           8366           8366        129.530        130.000        3.76135
           8413           8413        129.539        130.000        3.76161
           8460           8460        129.536        130.000        3.76167
           8507           8507        129.536        130.000        3.76145
           8554           8554        129.534        130.000        3.76127
           8601           8601        129.535        130.000        3.76125
           8648           8648        129.533        130.000        3.76129
           8695           8695        129.524        130.000         3.7612
           8742           8742        129.538        130.000        3.76099
           8789           8789        129.533        130.000        3.76105
           8836           8836        129.537        130.000        3.76115
           8883           8883        129.544        130.000        3.76108
           8930           8930        129.531        130.000         3.7609
           8977           8977        129.534        130.000        3.76091
           9024           9024        129.536        130.000        3.76078
           9071           9071        129.533        130.000         3.7611
           9118           9118        129.535        130.000        3.76084
           9165           9165        129.542        130.000        3.76084
           9212           9212        129.531        130.000        3.76075
           9259           9259        129.530        130.000        3.76097
           9306           9306        129.538        130.000        3.76073
           9353           9353        129.536        130.000        3.76089
           9400           9400        129.547        130.000         3.7608
           9447           9447        129.539        130.000        3.76071
           9494           9494        129.552        130.000        3.76074
           9541           9541        129.549        130.000        3.76061
           9588           9588        129.545        130.000        3.76073
           9635           9635        129.547        130.000        3.76052
           9682           9682        129.554        130.000        3.76046
           9729           9729        129.551        130.000        3.76048
           9776           9776        129.539        130.000        3.76047
           9823           9823        129.536        130.000        3.76038
           9870           9870        129.542        130.000        3.76049
           9917           9917        129.845        130.283        3.76037
           9964           9964        130.603        131.067        3.76051
          10011          10011        131.383        131.850        3.76015
          10058          10058        132.183        132.633        3.76009
          10105          10105        132.970        133.417        3.75964
          10152          10152        133.779        134.200        3.75947
          10199          10199        134.580        134.983        3.75952
          10246          10246        135.371        135.767        3.75926
          10293          10293        136.174        136.550        3.75879
          10340          10340        136.969        137.333        3.75871
          10387          10387        137.765        138.117        3.75828
          10434          10434        138.557        138.900        3.75866
          10481          10481        139.366        139.683        3.75792
          10528          10528        140.151        140.467        3.75737
          10575          10575        140.944        141.250        3.75763
          10622          10622        141.745        142.033        3.75703
          10669          10669        142.543        142.817        3.75649
          10716          10716        143.331        143.600        3.75657
          10763          10763        144.116        144.383        3.75619
          10810          10810        144.922        145.167        3.75587
          10857          10857        145.707        145.950        3.75504
          10904          10904        146.511        146.733        3.75516
          10951          10951        147.299        147.517        3.75433
          10998          10998        148.097        148.300        3.75465
          11045          11045        148.890        149.083        3.75443
          11092          11092        149.677        149.867        3.75431
          11139          11139        150.458        150.650        3.75407
          11186          11186        151.268        151.433        3.75357
          11233          11233        152.055        152.217        3.75341
          11280          11280        152.858        153.000        3.75291
          11327          11327        153.650        153.783        3.75261
          11374          11374        154.436        154.567        3.75255
          11421          11421        155.230        155.350        3.75232
          11468          11468        156.040        156.133        3.75212
          11515          11515        156.830        156.917        3.75147
          11562          11562        157.636        157.700        3.75139
          11609          11609        158.419        158.483        3.75084
          11656          11656        159.220        159.267        3.75067
          11703          11703        160.007        160.050        3.75043
          11750          11750        160.812        160.833        3.75041
          11797          11797        161.617        161.617           3.75
          11844          11844        162.411        162.400        3.74983
          11891          11891        163.195        163.183        3.74991
          11938          11938        163.992        163.967        3.74959
          11985          11985        164.791        164.750        3.74911
          12032          12032        165.581        165.533        3.74841
          12079          12079        166.377        166.317        3.74876
          12126          12126        167.170        167.100        3.74846
          12173          12173        167.967        167.883        3.74798
          12220          12220        168.746        168.667        3.74796
          12267          12267        169.538        169.450        3.74759
          12314          12314        170.324        170.233         3.7472
          12361          12361        171.129        171.017        3.74725
          12408          12408        171.926        171.800        3.74698
          12455          12455        172.712        172.583        3.74662
          12502          12502        173.512        173.367        3.74635
          12549          12549        174.299        174.150        3.74633
          12596          12596        175.100        174.933         3.7459
          12643          12643        175.888        175.717          3.746
          12690          12690        176.682        176.500        3.74578
          12737          12737        177.469        177.283        3.74525
          12784          12784        178.271        178.067        3.74531
          12831          12831        179.060        178.850        3.74466
          12878          12878        179.858        179.633        3.74483
          12925          12925        180.647        180.417        3.74425
          12972          12972        181.428        181.200        3.74433
          13019          13019        182.225        181.983         3.7441
          13066          13066        183.034        182.767        3.74378
          13113          13113        183.814        183.550         3.7435
          13160          13160        184.609        184.333        3.74342
          13207          13207        185.416        185.117        3.74327
          13254          13254        186.210        185.900        3.74324
          13301          13301        186.998        186.683        3.74279
          13348          13348        187.796        187.467        3.74285
          13395          13395        188.588        188.250        3.74255
          13442          13442        189.379        189.033        3.74214
          13489          13489        190.166        189.817        3.74227
          13536          13536        190.967        190.600        3.74179
          13583          13583        191.755        191.383        3.74158
          13630          13630        192.542        192.167        3.74155
          13677          13677        193.326        192.950        3.74129
          13724          13724        194.121        193.733        3.74114
          13771          13771        194.912        194.517          3.741
          13818          13818        195.702        195.300        3.74098
          13865          13865        196.499        196.083        3.74062
          13912          13912        197.292        196.867        3.74077
          13959          13959        198.072        197.650        3.74043
          14006          14006        198.880        198.433        3.74023
          14053          14053        199.664        199.217        3.73995
          14100          14100        200.453        200.000        3.73996
          14147          14147        201.261        200.783        3.73954
          14194          14194        202.060        201.567        3.73959
          14241          14241        202.847        202.350         3.7395
          14288          14288        203.646        203.133        3.73937
          14335          14335        204.432        203.917        3.73916
          14382          14382        205.216        204.700        3.73894
          14429          14429        206.015        205.483         3.7389
          14476          14476        206.802        206.267        3.73854
          14523          14523        207.593        207.050        3.73828
          14570          14570        208.373        207.833        3.73836
          14617          14617        209.172        208.617        3.73846
          14664          14664        209.971        209.400        3.73825
          14711          14711        210.761        210.183        3.73794
          14758          14758        211.555        210.967        3.73787
          14805          14805        212.353        211.750        3.73792
          14852          14852        213.146        212.533        3.73747
          14899          14899        213.940        213.317        3.73778
          14946          14946        214.730        214.100        3.73747
          14993          14993        215.524        214.883        3.73739
          15040          15040        216.314        215.667         3.7371
          15087          15087        217.090        216.450        3.73751
          15134          15134        217.894        217.233        3.73671
          15181          15181        218.681        218.017        3.73702
          15228          15228        219.479        218.800        3.73717
          15275          15275        220.273        219.583        3.73695
          15322          15322        221.058        220.367        3.73673
          15369          15369        221.851        221.150        3.73602
          15416          15416        222.635        221.933        3.73627
          15463          15463        223.445        222.717        3.73597
          15510          15510        224.234        223.500        3.73564
          15557          15557        225.025        224.283        3.73553
          15604          15604        225.808        225.067        3.73538
          15651          15651        226.601        225.850        3.73511
          15698          15698        227.387        226.633        3.73538
          15745          15745        228.175        227.417        3.73503
          15792          15792        228.962        228.200        3.73492
          15839          15839        229.759        228.983         3.7349
          15886          15886        230.542        229.767        3.73416
          15933          15933        231.340        230.550        3.73427
          15980          15980        232.134        231.333         3.7342
          16027          16027        232.930        232.117        3.73382
          16074          16074        233.716        232.900        3.73366
          16121          16121        234.506        233.683        3.73351
          16168          16168        235.297        234.467        3.73353
          16215          16215        236.094        235.250        3.73306
          16262          16262        236.884        236.033        3.73309
          16309          16309        237.658        236.817        3.73279
          16356          16356        238.452        237.600        3.73219
          16403          16403        239.250        238.383        3.73254
          16450          16450        240.036        239.167        3.73216
          16497          16497        240.820        239.950        3.73156
          16544          16544        241.608        240.733        3.73139
          16591          16591        242.415        241.517        3.73122
          16638          16638        243.202        242.300        3.73084
          16685          16685        243.989        243.083        3.73072
          16732          16732        244.785        243.867        3.73037
          16779          16779        245.573        244.650         3.7301
          16826          16826        246.352        245.433        3.73018
          16873          16873        247.140        246.217        3.72989
          16920          16920        247.935        247.000        3.72934
          16967          16967        248.724        247.783        3.72932
          17014          17014        249.505        248.567        3.72903
          17061          17061        250.291        249.350        3.72868
          17108          17108        251.086        250.133        3.72828
          17155          17155        251.869        250.917        3.72812
          17202          17202        252.660        251.700        3.72779
          17249          17249        253.449        252.483        3.72736
          17296          17296        254.225        253.267        3.72684
          17343          17343        255.026        254.050        3.72662
          17390          17390        255.817        254.833        3.72649
          17437          17437        256.611        255.617        3.72629
          17484          17484        257.393        256.400        3.72587
          17531          17531        258.179        257.183        3.72534
          17578          17578        258.964        257.967        3.72541
          17625          17625        259.759        258.750        3.72497
          17672          17672        260.547        259.533        3.72462
          17719          17719        261.335        260.317        3.72439
          17766          17766        262.124        261.100        3.72407
          17813          17813        262.914        261.883        3.72362
          17860          17860        263.692        262.667        3.72327
          17907          17907        264.486        263.450        3.72275
          17954          17954        265.268        264.233        3.72254
          18001          18001        266.050        265.017        3.72235
          18048          18048        266.842        265.800         3.7216
          18095          18095        267.618        266.583        3.72124
          18142          18142        268.414        267.367        3.72099
          18189          18189        269.205        268.150        3.72059
          18236          18236        269.996        268.933        3.72018
          18283          18283        270.787        269.717        3.71967
          18330          18330        271.580        270.500        3.71956
          18377          18377        272.354        271.283        3.71939
          18424          18424        273.154        272.067        3.71885
          18471          18471        273.951        272.850        3.71843
          18518          18518        274.711        273.633        3.71793
          18565          18565        275.504        274.417        3.71748
          18612          18612        275.987        275.000        3.71695
          18659          18659        276.071        275.000         3.7168
          18706          18706        276.088        275.000        3.71649
          18753          18753        276.096        275.000        3.71595
          18800          18800        276.090        275.000         3.7154
          18847          18847        276.102        275.000          3.715
          18894          18894        276.087        275.000        3.71473
          18941          18941        276.080        275.000        3.71448
          18988          18988        276.087        275.000        3.71423
          19035          19035        276.075        275.000        3.71369
          19082          19082        276.074        275.000        3.71295
          19129          19129        276.078        275.000        3.71326
          19176          19176        276.073        275.000        3.71283
          19223          19223        276.083        275.000        3.71303
          19270          19270        276.087        275.000        3.71256
          19317          19317        276.080        275.000        3.71264
          19364          19364        276.087        275.000        3.71234
          19411          19411        276.086        275.000        3.71231
          19458          19458        276.091        275.000        3.71207
          19505          19505        276.088        275.000        3.71171
          19552          19552        276.091        275.000        3.71148
          19599          19599        276.084        275.000        3.71119
          19646          19646        276.080        275.000        3.71113
          19693          19693        276.072        275.000        3.71092
          19740          19740        276.073        275.000        3.71103
          19787          19787        276.075        275.000        3.71094
          19834          19834        276.073        275.000         3.7108
          19881          19881        276.076        275.000        3.71051
          19928          19928        276.083        275.000         3.7102
          19975          19975        276.075        275.000        3.70994
          20022          20022        276.071        275.000        3.70994
          20069          20069        276.076        275.000        3.71003
          20116          20116        276.091        275.000        3.70981
          20163          20163        276.089        275.000        3.70936
          20210          20210        276.089        275.000        3.70934
          20257          20257        276.071        275.000        3.70901
          20304          20304        276.077        275.000         3.7091
          20351          20351        276.083        275.000        3.70899
          20398          20398        276.078        275.000        3.70887
          20445          20445        276.079        275.000        3.70888
          20492          20492        276.085        275.000        3.70872
          20539          20539        276.083        275.000        3.70906
          20586          20586        276.085        275.000        3.70863
          20633          20633        276.086        275.000        3.70824
          20680          20680        276.086        275.000        3.70871
          20727          20727        276.095        275.000        3.70871
          20774          20774        276.088        275.000        3.70826
          20821          20821        276.087        275.000        3.70834
          20868          20868        276.091        275.000        3.70839
          20915          20915        276.099        275.000        3.70814
          20962          20962        276.094        275.000        3.70792
          21009          21009        276.097        275.000        3.70792
          21056          21056        276.095        275.000        3.70752
          21103          21103        276.095        275.000        3.70761
          21150          21150        276.090        275.000        3.70732
          21197          21197        276.100        275.000        3.70715
          21244          21244        276.095        275.000        3.70702
          21291          21291        276.107        275.000        3.70713
          21338          21338        276.102        275.000        3.70695
          21385          21385        276.097        275.000        3.70691
          21432          21432        276.097        275.000        3.70703
          21479          21479        276.105        275.000        3.70668
          21526          21526        276.107        275.000        3.70672
          21573          21573        276.112        275.000        3.70668
          21620          21620        276.109        275.000        3.70688
          21667          21667        276.106        275.000        3.70678
          21714          21714        276.103        275.000        3.70646
          21761          21761        276.111        275.000        3.70647
          21808          21808        276.117        275.000        3.70651
          21855          21855        276.113        275.000        3.70652
          21902          21902        276.104        275.000        3.70647
          21949          21949        276.108        275.000        3.70617
          21996          21996        276.112        275.000        3.70623
          22043          22043        276.108        275.000        3.70616
          22090          22090        276.107        275.000         3.7064
          22137          22137        276.100        275.000        3.70613
          22184          22184        276.109        275.000        3.70609
          22231          22231        276.660        275.517        3.70614
          22278          22278        277.424        276.300        3.70584
          22325          22325        278.214        277.083        3.70585
          22372          22372        278.993        277.867        3.70575
          22419          22419        279.806        278.650        3.70563
          22466          22466        280.592        279.433        3.70575
          22513          22513        281.369        280.217        3.70535
          22560          22560        282.161        281.000        3.70536
          22607          22607        282.947        281.783        3.70532
          22654          22654        283.727        282.567         3.7052
          22701          22701        284.526        283.350        3.70524
          22748          22748        285.311        284.133        3.70472
          22795          22795        286.096        284.917        3.70478
          22842          22842        286.885        285.700        3.70432
          22889          22889        287.671        286.483         3.7043
          22936          22936        288.460        287.267        3.70378
          22983          22983        289.236        288.050        3.70385
          23030          23030        290.025        288.833        3.70339
          23077          23077        290.806        289.617        3.70327
          23124          23124        291.603        290.400        3.70314
          23171          23171        292.386        291.183        3.70299
          23218          23218        293.170        291.967        3.70255
          23265          23265        293.961        292.750        3.70216
          23312          23312        294.747        293.533        3.70181
          23359          23359        295.529        294.317        3.70158
          23406          23406        296.314        295.100        3.70126
          23453          23453        297.110        295.883        3.70131
          23500          23500        297.887        296.667        3.70054
          23547          23547        298.683        297.450        3.70034
          23594          23594        299.469        298.233        3.69986
          23641          23641        300.249        299.017        3.69908
          23688          23688        301.033        299.800        3.69872
          23735          23735        301.830        300.583        3.69827
          23782          23782        302.615        301.367        3.69785
          23829          23829        303.390        302.150        3.69743
          23876          23876        304.172        302.933        3.69711
          23923          23923        304.957        303.717        3.69658
          23970          23970        305.749        304.500        3.69623
          24017          24017        306.526        305.283        3.69552
          24064          24064        307.309        306.067        3.69512
          24111          24111        308.103        306.850        3.69446
          24158          24158        308.883        307.633        3.69399
          24205          24205        309.672        308.417        3.69336
          24252          24252        310.459        309.200         3.6927
          24299          24299        311.240        309.983         3.6918
          24346          24346        312.030        310.767        3.69098
          24393          24393        312.808        311.550        3.69069
          24440          24440        313.593        312.333        3.69017
          24487          24487        314.381        313.117        3.68965
          24534          24534        315.174        313.900        3.68867
          24581          24581        315.946        314.683        3.68795
          24628          24628        316.730        315.467        3.68706
          24675          24675        317.523        316.250        3.68617
          24722          24722        318.303        317.033        3.68528
          24769          24769        319.085        317.817        3.68441
          24816          24816        319.869        318.600        3.68388
          24863          24863        320.650        319.383        3.68299
          24910          24910        321.426        320.167         3.6818
          24957          24957        322.215        320.950        3.68087
          25004          25004        323.001        321.733        3.67952
          25051          25051        323.785        322.517        3.67883
          25098          25098        324.564        323.300        3.67762
          25145          25145        325.343        324.083        3.67648
          25192          25192        326.136        324.867        3.67547
          25239          25239        326.911        325.650        3.67417
          25286          25286        327.686        326.433        3.67299
          25333          25333        328.479        327.217        3.67207
          25380          25380        329.260        328.000        3.67103
          25427          25427        330.046        328.783        3.66947
          25474          25474        330.839        329.567        3.66841
          25521          25521        331.614        330.350        3.66666
          25568          25568        332.399        331.133        3.66529
          25615          25615        333.189        331.917        3.66405
          25662          25662        333.964        332.700        3.66228
          25709          25709        334.754        333.483        3.66128
          25756          25756        335.536        334.267        3.65933
          25803          25803        336.318        335.050        3.65792
          25850          25850        337.092        335.833        3.65619
          25897          25897        337.885        336.617        3.65441
          25944          25944        338.657        337.400        3.65254
          25991          25991        339.449        338.183         3.6507
          26038          26038        340.229        338.967        3.64847
          26085          26085        341.017        339.750        3.64627
          26132          26132        341.798        340.533        3.64441
          26179          26179        342.573        341.317        3.64221
          26226          26226        343.358        342.100        3.63974
          26273          26273        344.141        342.883        3.63744
          26320          26320        344.928        343.667        3.63462
          26367          26367        345.701        344.450          3.632
          26414          26414        346.487        345.233        3.62922
          26461          26461        347.267        346.017        3.62635
          26508          26508        348.050        346.800        3.62375
          26555          26555        348.832        347.583        3.62057
          26602          26602        349.607        348.367        3.61738
          26649          26649        350.393        349.150         3.6139
          26696          26696        351.086        349.933        3.61063
          26743          26743        351.223        350.000        3.60699
          26790          26790        351.236        350.000        3.60365
          26837          26837        351.229        350.000        3.60002
          26884          26884        351.234        350.000        3.59676
          26931          26931        351.221        350.000          3.593
          26978          26978        351.224        350.000        3.58988
          27025          27025        351.213        350.000        3.58663
          27072          27072        351.222        350.000         3.5834
          27119          27119        351.219        350.000        3.57997
          27166          27166        351.220        350.000        3.57706
          27213          27213        351.225        350.000         3.5736
          27260          27260        351.220        350.000        3.57042
          27307          27307        351.223        350.000        3.56685
          27354          27354        351.217        350.000        3.56395
          27401          27401        351.217        350.000        3.56073
          27448          27448        351.211        350.000        3.55731
          27495          27495        351.205        350.000        3.55451
          27542          27542        351.215        350.000        3.55077
          27589          27589        351.205        350.000         3.5481
          27636          27636        351.214        350.000        3.54471
          27683          27683        351.218        350.000        3.54133
          27730          27730        351.221        350.000        3.53815
          27777          27777        351.220        350.000        3.53511
          27824          27824        351.220        350.000        3.53232
          27871          27871        351.217        350.000        3.52872
          27918          27918        351.226        350.000        3.52583
          27965          27965        351.216        350.000        3.52246
          28012          28012        351.211        350.000        3.51939
          28059          28059        351.211        350.000        3.51624
          28106          28106        351.213        350.000        3.51296
          28153          28153        351.216        350.000        3.50962
          28200          28200        351.225        350.000        3.50674
          28247          28247        351.218        350.000        3.50365
          28294          28294        351.203        350.000        3.50025
          28341          28341        351.207        350.000        3.49752
          28388          28388        351.205        350.000        3.49412
          28435          28435        351.195        350.000        3.49117
          28482          28482        351.215        350.000        3.48784
          28529          28529        351.211        350.000        3.48433
          28576          28576        351.209        350.000        3.48145
          28623          28623        351.214        350.000        3.47816
          28670          28670        351.217        350.000        3.47497
          28717          28717        351.206        350.000        3.47171
          28764          28764        351.215        350.000        3.46854
          28811          28811        351.203        350.000         3.4652
          28858          28858        351.206        350.000        3.46195
          28905          28905        351.200        350.000        3.45875
          28952          28952        351.190        350.000        3.45554
          28999          28999        351.189        350.000        3.45228
          29046          29046        351.194        350.000         3.4491
          29093          29093        351.193        350.000        3.44601
          29140          29140        351.197        350.000        3.44254
          29187          29187        351.191        350.000        3.43922
          29234          29234        351.189        350.000        3.43619
          29281          29281        351.198        350.000        3.43285
          29328          29328        351.187        350.000        3.42972
          29375          29375        351.196        350.000        3.42648
          29422          29422        351.200        350.000        3.42371
          29469          29469        351.204        350.000        3.42069
          29516          29516        351.194        350.000        3.41712
          29563          29563        351.189        350.000        3.41375
          29610          29610        351.191        350.000         3.4105
          29657          29657        351.198        350.000        3.40768
          29704          29704        351.200        350.000        3.40417
          29751          29751        351.194        350.000        3.40115
          29798          29798        351.191        350.000        3.39765
          29845          29845        351.200        350.000        3.39451
          29892          29892        351.189        350.000        3.39133
          29939          29939        351.194        350.000        3.38792
          29986          29986        351.194        350.000        3.38462
          30033          30033        351.198        350.000        3.38123
          30080          30080        351.196        350.000        3.37801
          30127          30127        351.194        350.000        3.37495
          30174          30174        351.205        350.000        3.37158
          30221          30221        351.202        350.000        3.36857
          30268          30268        351.194        350.000        3.36503
          30300          30300        351.194        350.000        3.36237

Results:
  ? Step	-14.4852 %
  	-0.6295 mg
  Onset	29.85 °C
  Result Mode  Sample Temp

Texts:

  ^&164-Gd
  Sample Weight
  164-Gd, 4.3456 mg

Sample:
  164-Gd, 4.3456 mg
Sample Remarks:

Experiment Comments:
  -
Curve Categories:
Evaluation:

Method:
  Michi_NDI-waterquant_350C
Adjustment:
  From 0.00 to 505.00 min
  Sample Temperature:
    TGA/SF SDTA FRS2, adjusted 09.09.2014 08:42:33
    Tc     : 25.00 °C
    dTs(T) : 1.2204 - 12.4938e-03*T + 8.0181e-06*T^2 °C
    Tau Lag: 6.9852 + 6.4049e-03*T + 0.0000*T^2 s
  Heatflow
    E Indium      : 29.0849 1/mW
    dE relative   : 3.2150 - 879.3278e-06*T - 7.1178e-06*T^2
      adjusted    : (09.09.2014 08:43:30)
  RTyp, adjusted 09.09.2014 08:41:23
  Tc     : 25.00 °C
  dTc(T) : 3.1957 + 9.6752e-03*T - 19.4000e-06*T^2 °C
  Balance:
    Type    : XP1U
    adjusted: -
Sample Holder:
  Alumina 70ul
  Weight  : 185.69 mg
  Material: Ceramic

Order Number:

Customer:

User:
  METTLER

________________________________________________________________________________
Not signed                                                        STARe SW 16.10